Folder: DrGG/Gnuplot/eq/Ferroceno/fc-1mM-F127-AuCNEA-Calcinado (part 2)

File: 5-FeOH-1mM-500.DTA.txt
"500mV/s"
EXPLAIN
TAG	CV
TITLE	LABEL	Cyclic Voltammetry	Test Identifier
DATE	LABEL	12/12/2016	Date
TIME	LABEL	15:11:14	Time
NOTES	NOTES	1	Notes...
	FeOH 1mM 500mv/
PSTAT	PSTAT	IFC1000-06217	Potentiostat
VINIT	POTEN	-2.00000E-001	F	Initial E (V)
VLIMIT1	POTEN	4.00000E-001	F	Scan Limit 1 (V)
VLIMIT2	POTEN	-2.00000E-001	F	Scan Limit 2 (V)
VFINAL	POTEN	4.00000E-001	F	Final E (V)
SCANRATE	QUANT	4.99999E+002	Scan Rate (mV/s)
STEPSIZE	QUANT	2.00000E+000	Step Size (mV)
CYCLES	IQUANT	1	Cycles (#)
IMODE	SELECTOR	1	I/E Range Mode
IRANGE	QUANT	5.00000E-001	Max Current (mA)
AREA	QUANT	1.00000E+000	Sample Area (cm^2)
EQDELAY	QUANT	5.00000E+000	Equil. Time (s)
IRCOMP	SELECTOR	0	IRComp
PFCOR	QUANT	5.00000E+001	PF Corr. (ohm)
SAMPLINGMODE	SELECTOR	1	Sampling Mode
EOC	QUANT	0	Open Circuit (V)
SEQUENCER	TOGGLE	TRUE	Run as Sequence
PSTATMODEL	IQUANT	48	Pstat Model
PSTATSECTION	LABEL	IFC1000-06217	Pstat Section
PSTATSERIALNO	LABEL	06217	Pstat Serial Number
CTRLMODE	IQUANT	1	Control Mode
IESTAB	IQUANT	2	I/E Stability
CASPEED	IQUANT	2	Control Amp Speed
CONVENTION	IQUANT	1	Current Convention
ICHRANGE	IQUANT	2	Ich Range
ICHRANGEMODE	TOGGLE	F	Ich Auto Range
ICHOFFSETENABLE	TOGGLE	F	Ich Offset Enable
ICHOFFSET	QUANT	0	Ich Offset (V)
ICHFILTER	IQUANT	3	Ich Filter
VCHRANGE	IQUANT	2	Vch Range
VCHRANGEMODE	TOGGLE	F	Vch Auto Range
VCHOFFSETENABLE	TOGGLE	F	Vch Offset Enable
VCHOFFSET	QUANT	0	Vch Offset (V)
VCHFILTER	IQUANT	3	Vch Filter
IERANGELOWERLIMIT	IQUANT	4	I/E Range Lower Limit
IERANGEMODE	TOGGLE	F	I/E AutoRange
IERANGE	IQUANT	9	I/E Range
ACHSELECT	IQUANT	4	Ach Select
CABLEID	IQUANT	14	Cable ID
DCCALDATE	LABEL	11/10/2016	DC Calibration Date
ACCALDATE	LABEL	11/10/2016	AC Calibration Date
FRAMEWORKVERSION	QUANT	6.23	Framework Version
INSTRUMENTVERSION	LABEL	3.26	Instrument Version
CURVE1	TABLE
	Pt	T	Vf	Im	Vu	Sig	Ach	IERange	Over
	#	s	V vs. Ref.	A	V	V	V	#	bits
	0	0.004	-2.00041E-001	-9.73647E-007	0.00000E+000	-2.00000E-001	0.00000E+000	9	...........
	6	0.028	-1.88030E-001	-5.43492E-007	0.00000E+000	-1.88000E-001	0.00000E+000	9	...........
	12	0.052	-1.76007E-001	-4.64398E-007	0.00000E+000	-1.76000E-001	0.00000E+000	9	...........
	18	0.076	-1.64027E-001	-4.86600E-007	0.00000E+000	-1.64000E-001	0.00000E+000	9	...........
	24	0.1	-1.52024E-001	-4.04038E-007	0.00000E+000	-1.52000E-001	0.00000E+000	9	...........
	30	0.124	-1.39988E-001	-2.15324E-007	0.00000E+000	-1.40000E-001	0.00000E+000	9	...........
	36	0.148	-1.27986E-001	-7.86459E-008	0.00000E+000	-1.28000E-001	0.00000E+000	9	...........
	42	0.172	-1.15998E-001	-9.59909E-008	0.00000E+000	-1.16000E-001	0.00000E+000	9	...........
	48	0.196	-1.04008E-001	-1.71615E-007	0.00000E+000	-1.04000E-001	0.00000E+000	9	...........
	54	0.22	-9.20010E-002	-1.26518E-007	0.00000E+000	-9.20000E-002	0.00000E+000	9	...........
	60	0.244	-7.99775E-002	3.93000E-008	0.00000E+000	-8.00000E-002	0.00000E+000	9	...........
	66	0.268	-6.79666E-002	1.60021E-007	0.00000E+000	-6.80000E-002	0.00000E+000	9	...........
	72	0.292	-5.59744E-002	1.50308E-007	0.00000E+000	-5.60000E-002	0.00000E+000	9	...........
	78	0.316	-4.39551E-002	6.98272E-008	0.00000E+000	-4.40000E-002	0.00000E+000	9	...........
	84	0.34	-3.19421E-002	1.45451E-007	0.00000E+000	-3.20000E-002	0.00000E+000	9	...........
	90	0.364	-1.99437E-002	3.20289E-007	0.00000E+000	-2.00000E-002	0.00000E+000	9	...........
	96	0.388	-7.94108E-003	4.65987E-007	0.00000E+000	-7.99999E-003	0.00000E+000	9	...........
	102	0.412	4.06360E-003	4.75700E-007	0.00000E+000	4.00000E-003	0.00000E+000	9	...........
	108	0.436	1.60787E-002	4.57661E-007	0.00000E+000	1.60000E-002	0.00000E+000	9	...........
	114	0.46	2.81022E-002	6.03359E-007	0.00000E+000	2.80000E-002	0.00000E+000	9	...........
	120	0.484	4.01069E-002	9.00305E-007	0.00000E+000	4.00000E-002	0.00000E+000	9	...........
	126	0.508	5.21011E-002	1.20905E-006	0.00000E+000	5.20000E-002	0.00000E+000	9	...........
	132	0.532	6.40995E-002	1.49142E-006	0.00000E+000	6.40000E-002	0.00000E+000	9	...........
	138	0.556	7.61084E-002	1.82653E-006	0.00000E+000	7.60000E-002	0.00000E+000	9	...........
	144	0.58	8.81006E-002	2.41487E-006	0.00000E+000	8.80000E-002	0.00000E+000	9	...........
	150	0.604	1.00130E-001	3.25506E-006	0.00000E+000	1.00000E-001	0.00000E+000	9	...........
	156	0.628	1.12129E-001	4.25621E-006	0.00000E+000	1.12000E-001	0.00000E+000	9	...........
	162	0.652	1.24135E-001	5.31356E-006	0.00000E+000	1.24000E-001	0.00000E+000	9	...........
	168	0.676	1.36153E-001	6.45556E-006	0.00000E+000	1.36000E-001	0.00000E+000	9	...........
	174	0.7	1.48151E-001	7.80500E-006	0.00000E+000	1.48000E-001	0.00000E+000	9	...........
	180	0.724	1.60162E-001	9.29875E-006	0.00000E+000	1.60000E-001	0.00000E+000	9	...........
	186	0.748	1.72175E-001	1.07203E-005	0.00000E+000	1.72000E-001	0.00000E+000	9	...........
	192	0.772	1.84180E-001	1.19151E-005	0.00000E+000	1.84000E-001	0.00000E+000	9	...........
	198	0.796	1.96191E-001	1.28302E-005	0.00000E+000	1.96000E-001	0.00000E+000	9	...........
	204	0.82	2.08197E-001	1.35601E-005	0.00000E+000	2.08000E-001	0.00000E+000	9	...........
	210	0.844	2.20204E-001	1.40492E-005	0.00000E+000	2.20000E-001	0.00000E+000	9	...........
	216	0.868	2.32198E-001	1.41838E-005	0.00000E+000	2.32000E-001	0.00000E+000	9	...........
	222	0.892	2.44205E-001	1.39354E-005	0.00000E+000	2.44000E-001	0.00000E+000	9	...........
	228	0.916	2.56225E-001	1.34366E-005	0.00000E+000	2.56000E-001	0.00000E+000	9	...........
	234	0.94	2.68215E-001	1.29683E-005	0.00000E+000	2.68000E-001	0.00000E+000	9	...........
	240	0.964	2.80240E-001	1.25978E-005	0.00000E+000	2.80000E-001	0.00000E+000	9	...........
	246	0.988	2.92230E-001	1.21995E-005	0.00000E+000	2.92000E-001	0.00000E+000	9	...........
	252	1.012	3.04256E-001	1.17139E-005	0.00000E+000	3.04000E-001	0.00000E+000	9	...........
	258	1.036	3.16260E-001	1.12039E-005	0.00000E+000	3.16000E-001	0.00000E+000	9	...........
	264	1.06	3.28278E-001	1.08598E-005	0.00000E+000	3.28000E-001	0.00000E+000	9	...........
	270	1.084	3.40287E-001	1.06697E-005	0.00000E+000	3.40000E-001	0.00000E+000	9	...........
	276	1.108	3.52275E-001	1.04817E-005	0.00000E+000	3.52000E-001	0.00000E+000	9	...........
	282	1.132	3.64296E-001	1.01743E-005	0.00000E+000	3.64000E-001	0.00000E+000	9	...........
	288	1.156	3.76301E-001	9.83575E-006	0.00000E+000	3.76000E-001	0.00000E+000	9	...........
	294	1.18	3.88324E-001	9.65120E-006	0.00000E+000	3.88000E-001	0.00000E+000	9	...........
	300	1.204	4.00333E-001	9.61859E-006	0.00000E+000	4.00000E-001	0.00000E+000	9	...........
	306	1.228	3.88320E-001	8.60842E-006	0.00000E+000	3.88000E-001	0.00000E+000	9	...........
	312	1.252	3.76288E-001	8.01730E-006	0.00000E+000	3.76000E-001	0.00000E+000	9	...........
	318	1.276	3.64296E-001	7.48585E-006	0.00000E+000	3.64000E-001	0.00000E+000	9	...........
	324	1.3	3.52285E-001	7.13756E-006	0.00000E+000	3.52000E-001	0.00000E+000	9	...........
	330	1.324	3.40268E-001	6.93289E-006	0.00000E+000	3.40000E-001	0.00000E+000	9	...........
	336	1.348	3.28244E-001	6.70810E-006	0.00000E+000	3.28000E-001	0.00000E+000	9	...........
	342	1.372	3.16244E-001	6.32720E-006	0.00000E+000	3.16000E-001	0.00000E+000	9	...........
	348	1.396	3.04245E-001	5.87138E-006	0.00000E+000	3.04000E-001	0.00000E+000	9	...........
	354	1.42	2.92243E-001	5.49811E-006	0.00000E+000	2.92000E-001	0.00000E+000	9	...........
[...]
	784	3.14	1.68180E-001	9.17456E-006	0.00000E+000	1.68000E-001	0.00000E+000	9	...........
	787	3.152	1.74161E-001	1.00106E-005	0.00000E+000	1.74000E-001	0.00000E+000	9	...........
	790	3.164	1.80187E-001	1.06163E-005	0.00000E+000	1.80000E-001	0.00000E+000	9	...........
	793	3.176	1.86195E-001	1.11706E-005	0.00000E+000	1.86000E-001	0.00000E+000	9	...........
	796	3.188	1.92194E-001	1.18603E-005	0.00000E+000	1.92000E-001	0.00000E+000	9	...........
	799	3.2	1.98183E-001	1.21690E-005	0.00000E+000	1.98000E-001	0.00000E+000	9	...........
	802	3.212	2.04176E-001	1.27046E-005	0.00000E+000	2.04000E-001	0.00000E+000	9	...........
	805	3.224	2.10162E-001	1.29807E-005	0.00000E+000	2.10000E-001	0.00000E+000	9	...........
	808	3.236	2.16174E-001	1.31542E-005	0.00000E+000	2.16000E-001	0.00000E+000	9	...........
	811	3.248	2.22180E-001	1.34296E-005	0.00000E+000	2.22000E-001	0.00000E+000	9	...........
	814	3.26	2.28191E-001	1.33103E-005	0.00000E+000	2.28000E-001	0.00000E+000	9	...........
	817	3.272	2.34216E-001	1.34373E-005	0.00000E+000	2.34000E-001	0.00000E+000	9	...........
	820	3.284	2.40198E-001	1.32936E-005	0.00000E+000	2.40000E-001	0.00000E+000	9	...........
	823	3.296	2.46206E-001	1.30883E-005	0.00000E+000	2.46000E-001	0.00000E+000	9	...........
	826	3.308	2.52192E-001	1.30668E-005	0.00000E+000	2.52000E-001	0.00000E+000	9	...........
	829	3.32	2.58219E-001	1.26553E-005	0.00000E+000	2.58000E-001	0.00000E+000	9	...........
	832	3.332	2.64222E-001	1.25839E-005	0.00000E+000	2.64000E-001	0.00000E+000	9	...........
	835	3.344	2.70200E-001	1.22904E-005	0.00000E+000	2.70000E-001	0.00000E+000	9	...........
	838	3.356	2.76223E-001	1.19817E-005	0.00000E+000	2.76000E-001	0.00000E+000	9	...........
	841	3.368	2.82241E-001	1.19088E-005	0.00000E+000	2.82000E-001	0.00000E+000	9	...........
	844	3.38	2.88227E-001	1.14787E-005	0.00000E+000	2.88000E-001	0.00000E+000	9	...........
	847	3.392	2.94208E-001	1.14162E-005	0.00000E+000	2.94000E-001	0.00000E+000	9	...........
	850	3.404	3.00245E-001	1.11595E-005	0.00000E+000	3.00000E-001	0.00000E+000	9	...........
	853	3.416	3.06246E-001	1.08806E-005	0.00000E+000	3.06000E-001	0.00000E+000	9	...........
	856	3.428	3.12253E-001	1.08501E-005	0.00000E+000	3.12000E-001	0.00000E+000	9	...........
	859	3.44	3.18240E-001	1.04740E-005	0.00000E+000	3.18000E-001	0.00000E+000	9	...........
	862	3.452	3.24254E-001	1.04491E-005	0.00000E+000	3.24000E-001	0.00000E+000	9	...........
	865	3.464	3.30274E-001	1.02659E-005	0.00000E+000	3.30000E-001	0.00000E+000	9	...........
	868	3.476	3.36279E-001	1.00210E-005	0.00000E+000	3.36000E-001	0.00000E+000	9	...........
	871	3.488	3.42272E-001	1.00619E-005	0.00000E+000	3.42000E-001	0.00000E+000	9	...........
	874	3.5	3.48276E-001	9.72682E-006	0.00000E+000	3.48000E-001	0.00000E+000	9	...........
	877	3.512	3.54273E-001	9.75596E-006	0.00000E+000	3.54000E-001	0.00000E+000	9	...........
	880	3.524	3.60289E-001	9.61512E-006	0.00000E+000	3.60000E-001	0.00000E+000	9	...........
	883	3.536	3.66278E-001	9.41877E-006	0.00000E+000	3.66000E-001	0.00000E+000	9	...........
	886	3.548	3.72300E-001	9.49093E-006	0.00000E+000	3.72000E-001	0.00000E+000	9	...........
	889	3.56	3.78314E-001	9.20439E-006	0.00000E+000	3.78000E-001	0.00000E+000	9	...........
	892	3.572	3.84315E-001	9.24879E-006	0.00000E+000	3.84000E-001	0.00000E+000	9	...........
	895	3.584	3.90297E-001	9.13432E-006	0.00000E+000	3.90000E-001	0.00000E+000	9	...........
	898	3.596	3.96305E-001	8.97266E-006	0.00000E+000	3.96000E-001	0.00000E+000	9	...........
	899	3.6	3.98291E-001	8.91924E-006	0.00000E+000	3.98000E-001	0.00000E+000	9	...........

File: 6-FeOH-1mM-1000.DTA.txt
"1000mV/s"
EXPLAIN
TAG	CV
TITLE	LABEL	Cyclic Voltammetry	Test Identifier
DATE	LABEL	12/12/2016	Date
TIME	LABEL	15:11:23	Time
NOTES	NOTES	1	Notes...
	FeOH 1mM 1000mv/
PSTAT	PSTAT	IFC1000-06217	Potentiostat
VINIT	POTEN	-2.00000E-001	F	Initial E (V)
VLIMIT1	POTEN	4.00000E-001	F	Scan Limit 1 (V)
VLIMIT2	POTEN	-2.00000E-001	F	Scan Limit 2 (V)
VFINAL	POTEN	4.00000E-001	F	Final E (V)
SCANRATE	QUANT	9.99998E+002	Scan Rate (mV/s)
STEPSIZE	QUANT	2.00000E+000	Step Size (mV)
CYCLES	IQUANT	1	Cycles (#)
IMODE	SELECTOR	1	I/E Range Mode
IRANGE	QUANT	5.00000E-001	Max Current (mA)
AREA	QUANT	1.00000E+000	Sample Area (cm^2)
EQDELAY	QUANT	5.00000E+000	Equil. Time (s)
IRCOMP	SELECTOR	0	IRComp
PFCOR	QUANT	5.00000E+001	PF Corr. (ohm)
SAMPLINGMODE	SELECTOR	1	Sampling Mode
EOC	QUANT	0	Open Circuit (V)
SEQUENCER	TOGGLE	TRUE	Run as Sequence
PSTATMODEL	IQUANT	48	Pstat Model
PSTATSECTION	LABEL	IFC1000-06217	Pstat Section
PSTATSERIALNO	LABEL	06217	Pstat Serial Number
CTRLMODE	IQUANT	1	Control Mode
IESTAB	IQUANT	2	I/E Stability
CASPEED	IQUANT	2	Control Amp Speed
CONVENTION	IQUANT	1	Current Convention
ICHRANGE	IQUANT	2	Ich Range
ICHRANGEMODE	TOGGLE	F	Ich Auto Range
ICHOFFSETENABLE	TOGGLE	F	Ich Offset Enable
ICHOFFSET	QUANT	0	Ich Offset (V)
ICHFILTER	IQUANT	3	Ich Filter
VCHRANGE	IQUANT	2	Vch Range
VCHRANGEMODE	TOGGLE	F	Vch Auto Range
VCHOFFSETENABLE	TOGGLE	F	Vch Offset Enable
VCHOFFSET	QUANT	0	Vch Offset (V)
VCHFILTER	IQUANT	3	Vch Filter
IERANGELOWERLIMIT	IQUANT	4	I/E Range Lower Limit
IERANGEMODE	TOGGLE	F	I/E AutoRange
IERANGE	IQUANT	9	I/E Range
ACHSELECT	IQUANT	4	Ach Select
CABLEID	IQUANT	14	Cable ID
DCCALDATE	LABEL	11/10/2016	DC Calibration Date
ACCALDATE	LABEL	11/10/2016	AC Calibration Date
FRAMEWORKVERSION	QUANT	6.23	Framework Version
INSTRUMENTVERSION	LABEL	3.26	Instrument Version
CURVE1	TABLE
	Pt	T	Vf	Im	Vu	Sig	Ach	IERange	Over
	#	s	V vs. Ref.	A	V	V	V	#	bits
	0	0.002	-2.00051E-001	-9.98624E-007	0.00000E+000	-2.00000E-001	0.00000E+000	9	...........
	6	0.014	-1.88036E-001	-1.14723E-007	0.00000E+000	-1.88000E-001	0.00000E+000	9	...........
	12	0.026	-1.76013E-001	-6.47699E-008	0.00000E+000	-1.76000E-001	0.00000E+000	9	...........
	18	0.038	-1.64014E-001	1.11455E-007	0.00000E+000	-1.64000E-001	0.00000E+000	9	...........
	24	0.05	-1.52016E-001	3.20983E-007	0.00000E+000	-1.52000E-001	0.00000E+000	9	...........
	30	0.062	-1.39993E-001	2.48827E-007	0.00000E+000	-1.40000E-001	0.00000E+000	9	...........
	36	0.074	-1.27998E-001	5.47161E-007	0.00000E+000	-1.28000E-001	0.00000E+000	9	...........
	42	0.086	-1.16021E-001	4.79169E-007	0.00000E+000	-1.16000E-001	0.00000E+000	9	...........
	48	0.098	-1.04027E-001	5.79076E-007	0.00000E+000	-1.04000E-001	0.00000E+000	9	...........
	54	0.11	-9.19905E-002	7.38650E-007	0.00000E+000	-9.20000E-002	0.00000E+000	9	...........
	60	0.122	-7.99588E-002	6.47068E-007	0.00000E+000	-8.00000E-002	0.00000E+000	9	...........
	66	0.134	-6.79645E-002	9.16262E-007	0.00000E+000	-6.80000E-002	0.00000E+000	9	...........
	72	0.146	-5.59869E-002	8.39945E-007	0.00000E+000	-5.60000E-002	0.00000E+000	9	...........
	78	0.158	-4.39635E-002	9.64828E-007	0.00000E+000	-4.40000E-002	0.00000E+000	9	...........
	84	0.17	-3.19567E-002	1.13828E-006	0.00000E+000	-3.20000E-002	0.00000E+000	9	...........
	90	0.182	-1.99750E-002	1.04947E-006	0.00000E+000	-2.00000E-002	0.00000E+000	9	...........
	96	0.194	-7.95985E-003	1.37001E-006	0.00000E+000	-7.99999E-003	0.00000E+000	9	...........
	102	0.206	4.08029E-003	1.36168E-006	0.00000E+000	4.00000E-003	0.00000E+000	9	...........
	108	0.218	1.60745E-002	1.55456E-006	0.00000E+000	1.60000E-002	0.00000E+000	9	...........
	114	0.23	2.80980E-002	1.86677E-006	0.00000E+000	2.80000E-002	0.00000E+000	9	...........
	120	0.242	4.00923E-002	1.95696E-006	0.00000E+000	4.00000E-002	0.00000E+000	9	...........
	126	0.254	5.20948E-002	2.52449E-006	0.00000E+000	5.20000E-002	0.00000E+000	9	...........
	132	0.266	6.41100E-002	2.86306E-006	0.00000E+000	6.40000E-002	0.00000E+000	9	...........
	138	0.278	7.61167E-002	3.54993E-006	0.00000E+000	7.60000E-002	0.00000E+000	9	...........
	144	0.29	8.81193E-002	4.45464E-006	0.00000E+000	8.80000E-002	0.00000E+000	9	...........
	150	0.302	1.00134E-001	5.34825E-006	0.00000E+000	1.00000E-001	0.00000E+000	9	...........
	156	0.314	1.12108E-001	6.82466E-006	0.00000E+000	1.12000E-001	0.00000E+000	9	...........
	162	0.326	1.24119E-001	8.21920E-006	0.00000E+000	1.24000E-001	0.00000E+000	9	...........
	168	0.338	1.36155E-001	9.98700E-006	0.00000E+000	1.36000E-001	0.00000E+000	9	...........
	174	0.35	1.48149E-001	1.18894E-005	0.00000E+000	1.48000E-001	0.00000E+000	9	...........
	180	0.362	1.60156E-001	1.36364E-005	0.00000E+000	1.60000E-001	0.00000E+000	9	...........
	186	0.374	1.72175E-001	1.56567E-005	0.00000E+000	1.72000E-001	0.00000E+000	9	...........
	192	0.386	1.84173E-001	1.71068E-005	0.00000E+000	1.84000E-001	0.00000E+000	9	...........
	198	0.398	1.96193E-001	1.84916E-005	0.00000E+000	1.96000E-001	0.00000E+000	9	...........
	204	0.41	2.08187E-001	1.94365E-005	0.00000E+000	2.08000E-001	0.00000E+000	9	...........
	210	0.422	2.20181E-001	1.97626E-005	0.00000E+000	2.20000E-001	0.00000E+000	9	...........
	216	0.434	2.32217E-001	1.99430E-005	0.00000E+000	2.32000E-001	0.00000E+000	9	...........
	222	0.446	2.44199E-001	1.94282E-005	0.00000E+000	2.44000E-001	0.00000E+000	9	...........
	228	0.458	2.56222E-001	1.88815E-005	0.00000E+000	2.56000E-001	0.00000E+000	9	...........
	234	0.47	2.68208E-001	1.82626E-005	0.00000E+000	2.68000E-001	0.00000E+000	9	...........
	240	0.482	2.80240E-001	1.74079E-005	0.00000E+000	2.80000E-001	0.00000E+000	9	...........
	246	0.494	2.92226E-001	1.69486E-005	0.00000E+000	2.92000E-001	0.00000E+000	9	...........
	252	0.506	3.04229E-001	1.62104E-005	0.00000E+000	3.04000E-001	0.00000E+000	9	...........
	258	0.518	3.16256E-001	1.57261E-005	0.00000E+000	3.16000E-001	0.00000E+000	9	...........
	264	0.53	3.28255E-001	1.53695E-005	0.00000E+000	3.28000E-001	0.00000E+000	9	...........
	270	0.542	3.40287E-001	1.48117E-005	0.00000E+000	3.40000E-001	0.00000E+000	9	...........
	276	0.554	3.52256E-001	1.46729E-005	0.00000E+000	3.52000E-001	0.00000E+000	9	...........
	282	0.566	3.64292E-001	1.42289E-005	0.00000E+000	3.64000E-001	0.00000E+000	9	...........
	288	0.578	3.76282E-001	1.39958E-005	0.00000E+000	3.76000E-001	0.00000E+000	9	...........
	294	0.59	3.88301E-001	1.38542E-005	0.00000E+000	3.88000E-001	0.00000E+000	9	...........
	300	0.602	4.00325E-001	1.34879E-005	0.00000E+000	4.00000E-001	0.00000E+000	9	...........
	306	0.614	3.88305E-001	1.17090E-005	0.00000E+000	3.88000E-001	0.00000E+000	9	...........
	312	0.626	3.76290E-001	1.07252E-005	0.00000E+000	3.76000E-001	0.00000E+000	9	...........
	318	0.638	3.64283E-001	1.01424E-005	0.00000E+000	3.64000E-001	0.00000E+000	9	...........
	324	0.65	3.52260E-001	9.71364E-006	0.00000E+000	3.52000E-001	0.00000E+000	9	...........
	330	0.662	3.40291E-001	9.08089E-006	0.00000E+000	3.40000E-001	0.00000E+000	9	...........
	336	0.674	3.28242E-001	8.84917E-006	0.00000E+000	3.28000E-001	0.00000E+000	9	...........
	342	0.686	3.16235E-001	8.24972E-006	0.00000E+000	3.16000E-001	0.00000E+000	9	...........
	348	0.698	3.04241E-001	7.82373E-006	0.00000E+000	3.04000E-001	0.00000E+000	9	...........
	354	0.71	2.92230E-001	7.38664E-006	0.00000E+000	2.92000E-001	0.00000E+000	9	...........
[...]
	784	1.57	1.68170E-001	1.35448E-005	0.00000E+000	1.68000E-001	0.00000E+000	9	...........
	787	1.576	1.74178E-001	1.44870E-005	0.00000E+000	1.74000E-001	0.00000E+000	9	...........
	790	1.582	1.80185E-001	1.52155E-005	0.00000E+000	1.80000E-001	0.00000E+000	9	...........
	793	1.588	1.86193E-001	1.60883E-005	0.00000E+000	1.86000E-001	0.00000E+000	9	...........
	796	1.594	1.92200E-001	1.69167E-005	0.00000E+000	1.92000E-001	0.00000E+000	9	...........
	799	1.6	1.98170E-001	1.74065E-005	0.00000E+000	1.98000E-001	0.00000E+000	9	...........
	802	1.606	2.04194E-001	1.79060E-005	0.00000E+000	2.04000E-001	0.00000E+000	9	...........
	805	1.612	2.10173E-001	1.84319E-005	0.00000E+000	2.10000E-001	0.00000E+000	9	...........
	808	1.618	2.16176E-001	1.86359E-005	0.00000E+000	2.16000E-001	0.00000E+000	9	...........
	811	1.624	2.22184E-001	1.86970E-005	0.00000E+000	2.22000E-001	0.00000E+000	9	...........
	814	1.63	2.28200E-001	1.88760E-005	0.00000E+000	2.28000E-001	0.00000E+000	9	...........
	817	1.636	2.34228E-001	1.88232E-005	0.00000E+000	2.34000E-001	0.00000E+000	9	...........
	820	1.642	2.40194E-001	1.85069E-005	0.00000E+000	2.40000E-001	0.00000E+000	9	...........
	823	1.648	2.46214E-001	1.83584E-005	0.00000E+000	2.46000E-001	0.00000E+000	9	...........
	826	1.654	2.52213E-001	1.81613E-005	0.00000E+000	2.52000E-001	0.00000E+000	9	...........
	829	1.66	2.58229E-001	1.76896E-005	0.00000E+000	2.58000E-001	0.00000E+000	9	...........
	832	1.666	2.64220E-001	1.73399E-005	0.00000E+000	2.64000E-001	0.00000E+000	9	...........
	835	1.672	2.70211E-001	1.71262E-005	0.00000E+000	2.70000E-001	0.00000E+000	9	...........
	838	1.678	2.76223E-001	1.66822E-005	0.00000E+000	2.76000E-001	0.00000E+000	9	...........
	841	1.684	2.82222E-001	1.62437E-005	0.00000E+000	2.82000E-001	0.00000E+000	9	...........
	844	1.69	2.88229E-001	1.60591E-005	0.00000E+000	2.88000E-001	0.00000E+000	9	...........
	847	1.696	2.94224E-001	1.57566E-005	0.00000E+000	2.94000E-001	0.00000E+000	9	...........
	850	1.702	3.00245E-001	1.53126E-005	0.00000E+000	3.00000E-001	0.00000E+000	9	...........
	853	1.708	3.06244E-001	1.51308E-005	0.00000E+000	3.06000E-001	0.00000E+000	9	...........
	856	1.714	3.12239E-001	1.49643E-005	0.00000E+000	3.12000E-001	0.00000E+000	9	...........
	859	1.72	3.18238E-001	1.45661E-005	0.00000E+000	3.18000E-001	0.00000E+000	9	...........
	862	1.726	3.24237E-001	1.43579E-005	0.00000E+000	3.24000E-001	0.00000E+000	9	...........
	865	1.732	3.30278E-001	1.42997E-005	0.00000E+000	3.30000E-001	0.00000E+000	9	...........
	868	1.738	3.36256E-001	1.40138E-005	0.00000E+000	3.36000E-001	0.00000E+000	9	...........
	871	1.744	3.42260E-001	1.37363E-005	0.00000E+000	3.42000E-001	0.00000E+000	9	...........
	874	1.75	3.48280E-001	1.37349E-005	0.00000E+000	3.48000E-001	0.00000E+000	9	...........
	877	1.756	3.54275E-001	1.35753E-005	0.00000E+000	3.54000E-001	0.00000E+000	9	...........
	880	1.762	3.60295E-001	1.32714E-005	0.00000E+000	3.60000E-001	0.00000E+000	9	...........
	883	1.768	3.66269E-001	1.32423E-005	0.00000E+000	3.66000E-001	0.00000E+000	9	...........
	886	1.774	3.72302E-001	1.32243E-005	0.00000E+000	3.72000E-001	0.00000E+000	9	...........
	889	1.78	3.78330E-001	1.29440E-005	0.00000E+000	3.78000E-001	0.00000E+000	9	...........
	892	1.786	3.84325E-001	1.28413E-005	0.00000E+000	3.84000E-001	0.00000E+000	9	...........
	895	1.792	3.90316E-001	1.29051E-005	0.00000E+000	3.90000E-001	0.00000E+000	9	...........
	898	1.798	3.96324E-001	1.27206E-005	0.00000E+000	3.96000E-001	0.00000E+000	9	...........
	899	1.8	3.98310E-001	1.26220E-005	0.00000E+000	3.98000E-001	0.00000E+000	9	...........