Folder: DrGG/Gnuplot/eq/Ferroceno/fc-1mM-F127-AuCNEA-Calcinado

Note: README.md
# Dr GG
## Capitulo 2 --> OK
## Capitulo 3 --> OK
## Capitulo 4 --> OK
## Capitulo 5 --> OK

File: 3-FeOH-1mM-100.DTA.txt
"100mV/s"
EXPLAIN
TAG	CV
TITLE	LABEL	Cyclic Voltammetry	Test Identifier
DATE	LABEL	12/12/2016	Date
TIME	LABEL	15:10:37	Time
NOTES	NOTES	1	Notes...
	FeOH 1mM 100mv/
PSTAT	PSTAT	IFC1000-06217	Potentiostat
VINIT	POTEN	-2.00000E-001	F	Initial E (V)
VLIMIT1	POTEN	4.00000E-001	F	Scan Limit 1 (V)
VLIMIT2	POTEN	-2.00000E-001	F	Scan Limit 2 (V)
VFINAL	POTEN	4.00000E-001	F	Final E (V)
SCANRATE	QUANT	9.99998E+001	Scan Rate (mV/s)
STEPSIZE	QUANT	2.00000E+000	Step Size (mV)
CYCLES	IQUANT	1	Cycles (#)
IMODE	SELECTOR	1	I/E Range Mode
IRANGE	QUANT	5.00000E-001	Max Current (mA)
AREA	QUANT	1.00000E+000	Sample Area (cm^2)
EQDELAY	QUANT	5.00000E+000	Equil. Time (s)
IRCOMP	SELECTOR	0	IRComp
PFCOR	QUANT	5.00000E+001	PF Corr. (ohm)
SAMPLINGMODE	SELECTOR	1	Sampling Mode
EOC	QUANT	0	Open Circuit (V)
SEQUENCER	TOGGLE	TRUE	Run as Sequence
PSTATMODEL	IQUANT	48	Pstat Model
PSTATSECTION	LABEL	IFC1000-06217	Pstat Section
PSTATSERIALNO	LABEL	06217	Pstat Serial Number
CTRLMODE	IQUANT	1	Control Mode
IESTAB	IQUANT	2	I/E Stability
CASPEED	IQUANT	2	Control Amp Speed
CONVENTION	IQUANT	1	Current Convention
ICHRANGE	IQUANT	2	Ich Range
ICHRANGEMODE	TOGGLE	F	Ich Auto Range
ICHOFFSETENABLE	TOGGLE	F	Ich Offset Enable
ICHOFFSET	QUANT	0	Ich Offset (V)
ICHFILTER	IQUANT	3	Ich Filter
VCHRANGE	IQUANT	2	Vch Range
VCHRANGEMODE	TOGGLE	F	Vch Auto Range
VCHOFFSETENABLE	TOGGLE	F	Vch Offset Enable
VCHOFFSET	QUANT	0	Vch Offset (V)
VCHFILTER	IQUANT	3	Vch Filter
IERANGELOWERLIMIT	IQUANT	4	I/E Range Lower Limit
IERANGEMODE	TOGGLE	F	I/E AutoRange
IERANGE	IQUANT	9	I/E Range
ACHSELECT	IQUANT	4	Ach Select
CABLEID	IQUANT	14	Cable ID
DCCALDATE	LABEL	11/10/2016	DC Calibration Date
ACCALDATE	LABEL	11/10/2016	AC Calibration Date
FRAMEWORKVERSION	QUANT	6.23	Framework Version
INSTRUMENTVERSION	LABEL	3.26	Instrument Version
CURVE1	TABLE
	Pt	T	Vf	Im	Vu	Sig	Ach	IERange	Over
	#	s	V vs. Ref.	A	V	V	V	#	bits
	0	0.02	-2.00029E-001	-1.23077E-006	0.00000E+000	-2.00000E-001	0.00000E+000	9	...........
	6	0.14	-1.88036E-001	-1.08396E-006	0.00000E+000	-1.88000E-001	0.00000E+000	9	...........
	12	0.26	-1.76018E-001	-9.97514E-007	0.00000E+000	-1.76000E-001	0.00000E+000	9	...........
	18	0.38	-1.64020E-001	-9.23555E-007	0.00000E+000	-1.64000E-001	0.00000E+000	9	...........
	24	0.5	-1.51996E-001	-8.58199E-007	0.00000E+000	-1.52000E-001	0.00000E+000	9	...........
	30	0.62	-1.40001E-001	-8.11437E-007	0.00000E+000	-1.40000E-001	0.00000E+000	9	...........
	36	0.74	-1.27991E-001	-7.70503E-007	0.00000E+000	-1.28000E-001	0.00000E+000	9	...........
	42	0.86	-1.16005E-001	-7.18468E-007	0.00000E+000	-1.16000E-001	0.00000E+000	9	...........
	48	0.98	-1.03999E-001	-6.85720E-007	0.00000E+000	-1.04000E-001	0.00000E+000	9	...........
	54	1.1	-9.20047E-002	-6.47423E-007	0.00000E+000	-9.20000E-002	0.00000E+000	9	...........
	60	1.22	-7.99754E-002	-6.06211E-007	0.00000E+000	-8.00000E-002	0.00000E+000	9	...........
	66	1.34	-6.79653E-002	-5.79847E-007	0.00000E+000	-6.80000E-002	0.00000E+000	9	...........
	72	1.46	-5.59782E-002	-5.47932E-007	0.00000E+000	-5.60000E-002	0.00000E+000	9	...........
	78	1.58	-4.39672E-002	-5.19347E-007	0.00000E+000	-4.40000E-002	0.00000E+000	9	...........
	84	1.7	-3.19584E-002	-4.76887E-007	0.00000E+000	-3.20000E-002	0.00000E+000	9	...........
	90	1.82	-1.99504E-002	-4.43168E-007	0.00000E+000	-2.00000E-002	0.00000E+000	9	...........
	96	1.94	-7.94984E-003	-4.14029E-007	0.00000E+000	-7.99999E-003	0.00000E+000	9	...........
	102	2.06	4.05818E-003	-3.80449E-007	0.00000E+000	4.00000E-003	0.00000E+000	9	...........
	108	2.18	1.60812E-002	-3.24806E-007	0.00000E+000	1.60000E-002	0.00000E+000	9	...........
	114	2.3	2.80955E-002	-2.62919E-007	0.00000E+000	2.80000E-002	0.00000E+000	9	...........
	120	2.42	4.01044E-002	-1.97702E-007	0.00000E+000	4.00000E-002	0.00000E+000	9	...........
	126	2.54	5.21057E-002	-9.94599E-008	0.00000E+000	5.20000E-002	0.00000E+000	9	...........
	132	2.66	6.41271E-002	2.55627E-008	0.00000E+000	6.40000E-002	0.00000E+000	9	...........
	138	2.78	7.61372E-002	2.09975E-007	0.00000E+000	7.60000E-002	0.00000E+000	9	...........
	144	2.9	8.81139E-002	4.32962E-007	0.00000E+000	8.80000E-002	0.00000E+000	9	...........
	150	3.02	1.00137E-001	7.27688E-007	0.00000E+000	1.00000E-001	0.00000E+000	9	...........
	156	3.14	1.12130E-001	1.12010E-006	0.00000E+000	1.12000E-001	0.00000E+000	9	...........
	162	3.26	1.24135E-001	1.60423E-006	0.00000E+000	1.24000E-001	0.00000E+000	9	...........
	168	3.38	1.36151E-001	2.19660E-006	0.00000E+000	1.36000E-001	0.00000E+000	9	...........
	174	3.5	1.48157E-001	2.91010E-006	0.00000E+000	1.48000E-001	0.00000E+000	9	...........
	180	3.62	1.60163E-001	3.69951E-006	0.00000E+000	1.60000E-001	0.00000E+000	9	...........
	186	3.74	1.72181E-001	4.54664E-006	0.00000E+000	1.72000E-001	0.00000E+000	9	...........
	192	3.86	1.84185E-001	5.37156E-006	0.00000E+000	1.84000E-001	0.00000E+000	9	...........
	198	3.98	1.96188E-001	6.07993E-006	0.00000E+000	1.96000E-001	0.00000E+000	9	...........
	204	4.1	2.08187E-001	6.60472E-006	0.00000E+000	2.08000E-001	0.00000E+000	9	...........
	210	4.22	2.20189E-001	6.90986E-006	0.00000E+000	2.20000E-001	0.00000E+000	9	...........
	216	4.34	2.32219E-001	6.99075E-006	0.00000E+000	2.32000E-001	0.00000E+000	9	...........
	222	4.46	2.44209E-001	6.89015E-006	0.00000E+000	2.44000E-001	0.00000E+000	9	...........
	228	4.58	2.56238E-001	6.68618E-006	0.00000E+000	2.56000E-001	0.00000E+000	9	...........
	234	4.7	2.68220E-001	6.41643E-006	0.00000E+000	2.68000E-001	0.00000E+000	9	...........
	240	4.82	2.80223E-001	6.13946E-006	0.00000E+000	2.80000E-001	0.00000E+000	9	...........
	246	4.94	2.92240E-001	5.86125E-006	0.00000E+000	2.92000E-001	0.00000E+000	9	...........
	252	5.06	3.04242E-001	5.62813E-006	0.00000E+000	3.04000E-001	0.00000E+000	9	...........
	258	5.18	3.16253E-001	5.39710E-006	0.00000E+000	3.16000E-001	0.00000E+000	9	...........
	264	5.3	3.28254E-001	5.20061E-006	0.00000E+000	3.28000E-001	0.00000E+000	9	...........
	270	5.42	3.40277E-001	5.02314E-006	0.00000E+000	3.40000E-001	0.00000E+000	9	...........
	276	5.54	3.52276E-001	4.86107E-006	0.00000E+000	3.52000E-001	0.00000E+000	9	...........
	282	5.66	3.64286E-001	4.73688E-006	0.00000E+000	3.64000E-001	0.00000E+000	9	...........
	288	5.78	3.76287E-001	4.61893E-006	0.00000E+000	3.76000E-001	0.00000E+000	9	...........
	294	5.9	3.88308E-001	4.52083E-006	0.00000E+000	3.88000E-001	0.00000E+000	9	...........
	300	6.02	4.00323E-001	4.41884E-006	0.00000E+000	4.00000E-001	0.00000E+000	9	...........
	306	6.14	3.88319E-001	4.06542E-006	0.00000E+000	3.88000E-001	0.00000E+000	9	...........
	312	6.26	3.76288E-001	3.84201E-006	0.00000E+000	3.76000E-001	0.00000E+000	9	...........
	318	6.38	3.64289E-001	3.67009E-006	0.00000E+000	3.64000E-001	0.00000E+000	9	...........
	324	6.5	3.52278E-001	3.51066E-006	0.00000E+000	3.52000E-001	0.00000E+000	9	...........
	330	6.62	3.40272E-001	3.34858E-006	0.00000E+000	3.40000E-001	0.00000E+000	9	...........
	336	6.74	3.28255E-001	3.20525E-006	0.00000E+000	3.28000E-001	0.00000E+000	9	...........
	342	6.86	3.16246E-001	3.04595E-006	0.00000E+000	3.16000E-001	0.00000E+000	9	...........
	348	6.98	3.04246E-001	2.88277E-006	0.00000E+000	3.04000E-001	0.00000E+000	9	...........
	354	7.1	2.92229E-001	2.69516E-006	0.00000E+000	2.92000E-001	0.00000E+000	9	...........
	360	7.22	2.80246E-001	2.47634E-006	0.00000E+000	2.80000E-001	0.00000E+000	9	...........
[...]
	784	15.7	1.68168E-001	4.00894E-006	0.00000E+000	1.68000E-001	0.00000E+000	9	...........
	787	15.76	1.74170E-001	4.43577E-006	0.00000E+000	1.74000E-001	0.00000E+000	9	...........
	790	15.82	1.80191E-001	4.85233E-006	0.00000E+000	1.80000E-001	0.00000E+000	9	...........
	793	15.88	1.86184E-001	5.24071E-006	0.00000E+000	1.86000E-001	0.00000E+000	9	...........
	796	15.94	1.92200E-001	5.60607E-006	0.00000E+000	1.92000E-001	0.00000E+000	9	...........
	799	16	1.98185E-001	5.92341E-006	0.00000E+000	1.98000E-001	0.00000E+000	9	...........
	802	16.06	2.04181E-001	6.19358E-006	0.00000E+000	2.04000E-001	0.00000E+000	9	...........
	805	16.12	2.10190E-001	6.40630E-006	0.00000E+000	2.10000E-001	0.00000E+000	9	...........
	808	16.18	2.16182E-001	6.56462E-006	0.00000E+000	2.16000E-001	0.00000E+000	9	...........
	811	16.24	2.22191E-001	6.66689E-006	0.00000E+000	2.22000E-001	0.00000E+000	9	...........
	814	16.3	2.28203E-001	6.71559E-006	0.00000E+000	2.28000E-001	0.00000E+000	9	...........
	817	16.36	2.34225E-001	6.71393E-006	0.00000E+000	2.34000E-001	0.00000E+000	9	...........
	820	16.42	2.40195E-001	6.66647E-006	0.00000E+000	2.40000E-001	0.00000E+000	9	...........
	823	16.48	2.46216E-001	6.58724E-006	0.00000E+000	2.46000E-001	0.00000E+000	9	...........
	826	16.54	2.52200E-001	6.49094E-006	0.00000E+000	2.52000E-001	0.00000E+000	9	...........
	829	16.6	2.58227E-001	6.37133E-006	0.00000E+000	2.58000E-001	0.00000E+000	9	...........
	832	16.66	2.64206E-001	6.23715E-006	0.00000E+000	2.64000E-001	0.00000E+000	9	...........
	835	16.72	2.70221E-001	6.11573E-006	0.00000E+000	2.70000E-001	0.00000E+000	9	...........
	838	16.78	2.76223E-001	5.98377E-006	0.00000E+000	2.76000E-001	0.00000E+000	9	...........
	841	16.84	2.82239E-001	5.83461E-006	0.00000E+000	2.82000E-001	0.00000E+000	9	...........
	844	16.9	2.88246E-001	5.68669E-006	0.00000E+000	2.88000E-001	0.00000E+000	9	...........
	847	16.96	2.94223E-001	5.55875E-006	0.00000E+000	2.94000E-001	0.00000E+000	9	...........
	850	17.02	3.00249E-001	5.43928E-006	0.00000E+000	3.00000E-001	0.00000E+000	9	...........
	853	17.08	3.06260E-001	5.31564E-006	0.00000E+000	3.06000E-001	0.00000E+000	9	...........
	856	17.14	3.12252E-001	5.19950E-006	0.00000E+000	3.12000E-001	0.00000E+000	9	...........
	859	17.2	3.18261E-001	5.10182E-006	0.00000E+000	3.18000E-001	0.00000E+000	9	...........
	862	17.26	3.24270E-001	5.00982E-006	0.00000E+000	3.24000E-001	0.00000E+000	9	...........
	865	17.32	3.30275E-001	4.91574E-006	0.00000E+000	3.30000E-001	0.00000E+000	9	...........
	868	17.38	3.36275E-001	4.82818E-006	0.00000E+000	3.36000E-001	0.00000E+000	9	...........
	871	17.44	3.42273E-001	4.74590E-006	0.00000E+000	3.42000E-001	0.00000E+000	9	...........
	874	17.5	3.48274E-001	4.67180E-006	0.00000E+000	3.48000E-001	0.00000E+000	9	...........
	877	17.56	3.54278E-001	4.60492E-006	0.00000E+000	3.54000E-001	0.00000E+000	9	...........
	880	17.62	3.60296E-001	4.54247E-006	0.00000E+000	3.60000E-001	0.00000E+000	9	...........
	883	17.68	3.66271E-001	4.47809E-006	0.00000E+000	3.66000E-001	0.00000E+000	9	...........
	886	17.74	3.72296E-001	4.41690E-006	0.00000E+000	3.72000E-001	0.00000E+000	9	...........
	889	17.8	3.78305E-001	4.36098E-006	0.00000E+000	3.78000E-001	0.00000E+000	9	...........
	892	17.86	3.84317E-001	4.30603E-006	0.00000E+000	3.84000E-001	0.00000E+000	9	...........
	895	17.92	3.90307E-001	4.25940E-006	0.00000E+000	3.90000E-001	0.00000E+000	9	...........
	898	17.98	3.96302E-001	4.21375E-006	0.00000E+000	3.96000E-001	0.00000E+000	9	...........
	900	18.02	4.00332E-001	4.19558E-006	0.00000E+000	4.00000E-001	0.00000E+000	9	...........

File: 4-FeOH-1mM-200.DTA.txt
"200mV/s"
EXPLAIN
TAG	CV
TITLE	LABEL	Cyclic Voltammetry	Test Identifier
DATE	LABEL	12/12/2016	Date
TIME	LABEL	15:11:00	Time
NOTES	NOTES	1	Notes...
	FeOH 1mM 200mv/
PSTAT	PSTAT	IFC1000-06217	Potentiostat
VINIT	POTEN	-2.00000E-001	F	Initial E (V)
VLIMIT1	POTEN	4.00000E-001	F	Scan Limit 1 (V)
VLIMIT2	POTEN	-2.00000E-001	F	Scan Limit 2 (V)
VFINAL	POTEN	4.00000E-001	F	Final E (V)
SCANRATE	QUANT	2.00000E+002	Scan Rate (mV/s)
STEPSIZE	QUANT	2.00000E+000	Step Size (mV)
CYCLES	IQUANT	1	Cycles (#)
IMODE	SELECTOR	1	I/E Range Mode
IRANGE	QUANT	5.00000E-001	Max Current (mA)
AREA	QUANT	1.00000E+000	Sample Area (cm^2)
EQDELAY	QUANT	5.00000E+000	Equil. Time (s)
IRCOMP	SELECTOR	0	IRComp
PFCOR	QUANT	5.00000E+001	PF Corr. (ohm)
SAMPLINGMODE	SELECTOR	1	Sampling Mode
EOC	QUANT	0	Open Circuit (V)
SEQUENCER	TOGGLE	TRUE	Run as Sequence
PSTATMODEL	IQUANT	48	Pstat Model
PSTATSECTION	LABEL	IFC1000-06217	Pstat Section
PSTATSERIALNO	LABEL	06217	Pstat Serial Number
CTRLMODE	IQUANT	1	Control Mode
IESTAB	IQUANT	2	I/E Stability
CASPEED	IQUANT	2	Control Amp Speed
CONVENTION	IQUANT	1	Current Convention
ICHRANGE	IQUANT	2	Ich Range
ICHRANGEMODE	TOGGLE	F	Ich Auto Range
ICHOFFSETENABLE	TOGGLE	F	Ich Offset Enable
ICHOFFSET	QUANT	0	Ich Offset (V)
ICHFILTER	IQUANT	3	Ich Filter
VCHRANGE	IQUANT	2	Vch Range
VCHRANGEMODE	TOGGLE	F	Vch Auto Range
VCHOFFSETENABLE	TOGGLE	F	Vch Offset Enable
VCHOFFSET	QUANT	0	Vch Offset (V)
VCHFILTER	IQUANT	3	Vch Filter
IERANGELOWERLIMIT	IQUANT	4	I/E Range Lower Limit
IERANGEMODE	TOGGLE	F	I/E AutoRange
IERANGE	IQUANT	9	I/E Range
ACHSELECT	IQUANT	4	Ach Select
CABLEID	IQUANT	14	Cable ID
DCCALDATE	LABEL	11/10/2016	DC Calibration Date
ACCALDATE	LABEL	11/10/2016	AC Calibration Date
FRAMEWORKVERSION	QUANT	6.23	Framework Version
INSTRUMENTVERSION	LABEL	3.26	Instrument Version
CURVE1	TABLE
	Pt	T	Vf	Im	Vu	Sig	Ach	IERange	Over
	#	s	V vs. Ref.	A	V	V	V	#	bits
	0	0.01	-2.00040E-001	-1.04025E-006	0.00000E+000	-2.00000E-001	0.00000E+000	9	...........
	6	0.07	-1.88041E-001	-8.45156E-007	0.00000E+000	-1.88000E-001	0.00000E+000	9	...........
	12	0.13	-1.76013E-001	-7.46636E-007	0.00000E+000	-1.76000E-001	0.00000E+000	9	...........
	18	0.19	-1.64041E-001	-6.80586E-007	0.00000E+000	-1.64000E-001	0.00000E+000	9	...........
	24	0.25	-1.52018E-001	-6.17867E-007	0.00000E+000	-1.52000E-001	0.00000E+000	9	...........
	30	0.31	-1.40021E-001	-5.60420E-007	0.00000E+000	-1.40000E-001	0.00000E+000	9	...........
	36	0.37	-1.27993E-001	-5.13797E-007	0.00000E+000	-1.28000E-001	0.00000E+000	9	...........
	42	0.43	-1.16010E-001	-4.72169E-007	0.00000E+000	-1.16000E-001	0.00000E+000	9	...........
	48	0.49	-1.03998E-001	-4.38034E-007	0.00000E+000	-1.04000E-001	0.00000E+000	9	...........
	54	0.55	-9.19989E-002	-4.06397E-007	0.00000E+000	-9.20000E-002	0.00000E+000	9	...........
	60	0.61	-7.99846E-002	-3.75592E-007	0.00000E+000	-8.00000E-002	0.00000E+000	9	...........
	66	0.67	-6.79678E-002	-3.40625E-007	0.00000E+000	-6.80000E-002	0.00000E+000	9	...........
	72	0.73	-5.59702E-002	-3.00107E-007	0.00000E+000	-5.60000E-002	0.00000E+000	9	...........
	78	0.79	-4.39501E-002	-2.66249E-007	0.00000E+000	-4.40000E-002	0.00000E+000	9	...........
	84	0.85	-3.19542E-002	-2.34057E-007	0.00000E+000	-3.20000E-002	0.00000E+000	9	...........
	90	0.91	-1.99449E-002	-2.01310E-007	0.00000E+000	-2.00000E-002	0.00000E+000	9	...........
	96	0.97	-7.93816E-003	-1.56074E-007	0.00000E+000	-7.99999E-003	0.00000E+000	9	...........
	102	1.03	4.07695E-003	-1.03068E-007	0.00000E+000	4.00000E-003	0.00000E+000	9	...........
	108	1.09	1.60812E-002	-5.39467E-008	0.00000E+000	1.60000E-002	0.00000E+000	9	...........
	114	1.15	2.80872E-002	3.12519E-008	0.00000E+000	2.80000E-002	0.00000E+000	9	...........
	120	1.21	4.01006E-002	1.43925E-007	0.00000E+000	4.00000E-002	0.00000E+000	9	...........
	126	1.27	5.21082E-002	2.91565E-007	0.00000E+000	5.20000E-002	0.00000E+000	9	...........
	132	1.33	6.41091E-002	4.80279E-007	0.00000E+000	6.40000E-002	0.00000E+000	9	...........
	138	1.39	7.61092E-002	7.44755E-007	0.00000E+000	7.60000E-002	0.00000E+000	9	...........
	144	1.45	8.81068E-002	1.08139E-006	0.00000E+000	8.80000E-002	0.00000E+000	9	...........
	150	1.51	1.00129E-001	1.51876E-006	0.00000E+000	1.00000E-001	0.00000E+000	9	...........
	156	1.57	1.12125E-001	2.08795E-006	0.00000E+000	1.12000E-001	0.00000E+000	9	...........
	162	1.63	1.24147E-001	2.77204E-006	0.00000E+000	1.24000E-001	0.00000E+000	9	...........
	168	1.69	1.36155E-001	3.58462E-006	0.00000E+000	1.36000E-001	0.00000E+000	9	...........
	174	1.75	1.48157E-001	4.50681E-006	0.00000E+000	1.48000E-001	0.00000E+000	9	...........
	180	1.81	1.60163E-001	5.49034E-006	0.00000E+000	1.60000E-001	0.00000E+000	9	...........
	186	1.87	1.72173E-001	6.50829E-006	0.00000E+000	1.72000E-001	0.00000E+000	9	...........
	192	1.93	1.84190E-001	7.46961E-006	0.00000E+000	1.84000E-001	0.00000E+000	9	...........
	198	1.99	1.96190E-001	8.30550E-006	0.00000E+000	1.96000E-001	0.00000E+000	9	...........
	204	2.05	2.08189E-001	8.91827E-006	0.00000E+000	2.08000E-001	0.00000E+000	9	...........
	210	2.11	2.20199E-001	9.27433E-006	0.00000E+000	2.20000E-001	0.00000E+000	9	...........
	216	2.17	2.32221E-001	9.38089E-006	0.00000E+000	2.32000E-001	0.00000E+000	9	...........
	222	2.23	2.44207E-001	9.27433E-006	0.00000E+000	2.44000E-001	0.00000E+000	9	...........
	228	2.29	2.56232E-001	9.02428E-006	0.00000E+000	2.56000E-001	0.00000E+000	9	...........
	234	2.35	2.68203E-001	8.69764E-006	0.00000E+000	2.68000E-001	0.00000E+000	9	...........
	240	2.41	2.80234E-001	8.35740E-006	0.00000E+000	2.80000E-001	0.00000E+000	9	...........
	246	2.47	2.92233E-001	8.02021E-006	0.00000E+000	2.92000E-001	0.00000E+000	9	...........
	252	2.53	3.04251E-001	7.71467E-006	0.00000E+000	3.04000E-001	0.00000E+000	9	...........
	258	2.59	3.16256E-001	7.42271E-006	0.00000E+000	3.16000E-001	0.00000E+000	9	...........
	264	2.65	3.28259E-001	7.17877E-006	0.00000E+000	3.28000E-001	0.00000E+000	9	...........
	270	2.71	3.40294E-001	6.96009E-006	0.00000E+000	3.40000E-001	0.00000E+000	9	...........
	276	2.77	3.52274E-001	6.75722E-006	0.00000E+000	3.52000E-001	0.00000E+000	9	...........
	282	2.83	3.64292E-001	6.57989E-006	0.00000E+000	3.64000E-001	0.00000E+000	9	...........
	288	2.89	3.76299E-001	6.43585E-006	0.00000E+000	3.76000E-001	0.00000E+000	9	...........
	294	2.95	3.88315E-001	6.30264E-006	0.00000E+000	3.88000E-001	0.00000E+000	9	...........
	300	3.01	4.00320E-001	6.17859E-006	0.00000E+000	4.00000E-001	0.00000E+000	9	...........
	306	3.07	3.88319E-001	5.63493E-006	0.00000E+000	3.88000E-001	0.00000E+000	9	...........
	312	3.13	3.76288E-001	5.31939E-006	0.00000E+000	3.76000E-001	0.00000E+000	9	...........
	318	3.19	3.64275E-001	5.07490E-006	0.00000E+000	3.64000E-001	0.00000E+000	9	...........
	324	3.25	3.52271E-001	4.85149E-006	0.00000E+000	3.52000E-001	0.00000E+000	9	...........
	330	3.31	3.40282E-001	4.64308E-006	0.00000E+000	3.40000E-001	0.00000E+000	9	...........
	336	3.37	3.28251E-001	4.43494E-006	0.00000E+000	3.28000E-001	0.00000E+000	9	...........
	342	3.43	3.16247E-001	4.22791E-006	0.00000E+000	3.16000E-001	0.00000E+000	9	...........
	348	3.49	3.04247E-001	4.00395E-006	0.00000E+000	3.04000E-001	0.00000E+000	9	...........
	354	3.55	2.92251E-001	3.76278E-006	0.00000E+000	2.92000E-001	0.00000E+000	9	...........
	360	3.61	2.80231E-001	3.45696E-006	0.00000E+000	2.80000E-001	0.00000E+000	9	...........
[...]
	781	7.82	1.62159E-001	5.10043E-006	0.00000E+000	1.62000E-001	0.00000E+000	9	...........
	784	7.85	1.68177E-001	5.77092E-006	0.00000E+000	1.68000E-001	0.00000E+000	9	...........
	787	7.88	1.74157E-001	6.14002E-006	0.00000E+000	1.74000E-001	0.00000E+000	9	...........
	790	7.91	1.80179E-001	6.78553E-006	0.00000E+000	1.80000E-001	0.00000E+000	9	...........
	793	7.94	1.86179E-001	7.11855E-006	0.00000E+000	1.86000E-001	0.00000E+000	9	...........
	796	7.97	1.92197E-001	7.68747E-006	0.00000E+000	1.92000E-001	0.00000E+000	9	...........
	799	8	1.98178E-001	7.92752E-006	0.00000E+000	1.98000E-001	0.00000E+000	9	...........
	802	8.03	2.04182E-001	8.39903E-006	0.00000E+000	2.04000E-001	0.00000E+000	9	...........
	805	8.06	2.10184E-001	8.51309E-006	0.00000E+000	2.10000E-001	0.00000E+000	9	...........
	808	8.09	2.16172E-001	8.85527E-006	0.00000E+000	2.16000E-001	0.00000E+000	9	...........
	811	8.12	2.22173E-001	8.82585E-006	0.00000E+000	2.22000E-001	0.00000E+000	9	...........
	814	8.15	2.28193E-001	9.03816E-006	0.00000E+000	2.28000E-001	0.00000E+000	9	...........
	817	8.18	2.34209E-001	8.88746E-006	0.00000E+000	2.34000E-001	0.00000E+000	9	...........
	820	8.21	2.40206E-001	8.99681E-006	0.00000E+000	2.40000E-001	0.00000E+000	9	...........
	823	8.24	2.46215E-001	8.74898E-006	0.00000E+000	2.46000E-001	0.00000E+000	9	...........
	826	8.27	2.52195E-001	8.79283E-006	0.00000E+000	2.52000E-001	0.00000E+000	9	...........
	829	8.3	2.58225E-001	8.47202E-006	0.00000E+000	2.58000E-001	0.00000E+000	9	...........
	832	8.33	2.64212E-001	8.49033E-006	0.00000E+000	2.64000E-001	0.00000E+000	9	...........
	835	8.36	2.70232E-001	8.14649E-006	0.00000E+000	2.70000E-001	0.00000E+000	9	...........
	838	8.39	2.76233E-001	8.15509E-006	0.00000E+000	2.76000E-001	0.00000E+000	9	...........
	841	8.42	2.82241E-001	7.80486E-006	0.00000E+000	2.82000E-001	0.00000E+000	9	...........
	844	8.45	2.88236E-001	7.81735E-006	0.00000E+000	2.88000E-001	0.00000E+000	9	...........
	847	8.48	2.94224E-001	7.47350E-006	0.00000E+000	2.94000E-001	0.00000E+000	9	...........
	850	8.51	3.00227E-001	7.49431E-006	0.00000E+000	3.00000E-001	0.00000E+000	9	...........
	853	8.54	3.06253E-001	7.18349E-006	0.00000E+000	3.06000E-001	0.00000E+000	9	...........
	856	8.57	3.12250E-001	7.22678E-006	0.00000E+000	3.12000E-001	0.00000E+000	9	...........
	859	8.6	3.18251E-001	6.90875E-006	0.00000E+000	3.18000E-001	0.00000E+000	9	...........
	862	8.63	3.24266E-001	6.96897E-006	0.00000E+000	3.24000E-001	0.00000E+000	9	...........
	865	8.66	3.30272E-001	6.67674E-006	0.00000E+000	3.30000E-001	0.00000E+000	9	...........
	868	8.69	3.36276E-001	6.74140E-006	0.00000E+000	3.36000E-001	0.00000E+000	9	...........
	871	8.72	3.42268E-001	6.45306E-006	0.00000E+000	3.42000E-001	0.00000E+000	9	...........
	874	8.75	3.48272E-001	6.54409E-006	0.00000E+000	3.48000E-001	0.00000E+000	9	...........
	877	8.78	3.54277E-001	6.26407E-006	0.00000E+000	3.54000E-001	0.00000E+000	9	...........
	880	8.81	3.60297E-001	6.36453E-006	0.00000E+000	3.60000E-001	0.00000E+000	9	...........
	883	8.84	3.66276E-001	6.09728E-006	0.00000E+000	3.66000E-001	0.00000E+000	9	...........
	886	8.87	3.72300E-001	6.20440E-006	0.00000E+000	3.72000E-001	0.00000E+000	9	...........
	889	8.9	3.78314E-001	5.96130E-006	0.00000E+000	3.78000E-001	0.00000E+000	9	...........
	892	8.93	3.84320E-001	6.06953E-006	0.00000E+000	3.84000E-001	0.00000E+000	9	...........
	895	8.96	3.90289E-001	5.82725E-006	0.00000E+000	3.90000E-001	0.00000E+000	9	...........
	898	8.99	3.96310E-001	5.95380E-006	0.00000E+000	3.96000E-001	0.00000E+000	9	...........
	899	9	3.98325E-001	5.75260E-006	0.00000E+000	3.98000E-001	0.00000E+000	9	...........